{
  "telecom": [
    {
      "use": "home"
    },
    {
      "value": "(03) 5555 6473",
      "use": "work",
      "system": "phone"
    }
  ],
  "contact": [
    {
      "telecom": [
        {
          "value": "+33 (237) 998327",
          "system": "phone"
        }
      ],
      "name": {
        "family": [
          null,
          "du",
          null,
          "Marché",
          null
        ],
        "_family": [
          {
            "extension": [
              {
                "valueCode": "ASKU",
                "url": "http:\/\/example.org\/fhir\/StructureDefinition\/nullFlavor"
              }
            ]
          },
          {
            "id": "a2",
            "extension": [
              {
                "valueCode": "VV",
                "url": "http:\/\/example.org\/fhir\/StructureDefinition\/qualifier"
              }
            ]
          },
          {
            "extension": [
              {
                "valueCode": "ASKU",
                "url": "http:\/\/hl7.org\/fhir\/StructureDefinitioniso-21090#nullFlavor"
              }
            ]
          },
          null,
          {
            "extension": [
              {
                "valueCode": "ASKU",
                "url": "http:\/\/hl7.org\/fhir\/StructureDefinition\/nullFlavor"
              }
            ]
          }
        ],
        "given": [
          "Bénédicte",
          "Denise",
          "Marie"
        ],
        "_given": [
          null,
          {
            "id": "a3",
            "extension": [
              {
                "valueCode": "MID",
                "url": "http:\/\/hl7.org\/fhir\/StructureDefinition\/qualifier"
              }
            ]
          },
          null
        ]
      },
      "relationship": [
        {
          "coding": [
            {
              "code": "partner",
              "system": "http:\/\/hl7.org\/fhir\/patient-contact-relationship"
            }
          ]
        }
      ]
    }
  ],
  "contained": [
    {
      "id": "pic1",
      "resourceType": "Binary",
      "content": "R0lGODlhEwARAPcAAAAAAAAA\/+9aAO+1AP\/WAP\/eAP\/eCP\/eEP\/eGP\/nAP\/nCP\/nEP\/nIf\/nKf\/nUv\/nWv\/vAP\/vCP\/vEP\/vGP\/vIf\/vKf\/vMf\/vOf\/vWv\/vY\/\/va\/\/vjP\/3c\/\/3lP\/3nP\/\/tf\/\/vf\/\/\/\/\/\/\/\/\/\/\/\/\/\/\/\/\/\/\/\/\/\/\/\/\/\/\/\/\/\/\/\/\/\/\/\/\/\/\/\/\/\/\/\/\/\/\/\/\/\/\/\/\/\/\/\/\/\/\/\/\/\/\/\/\/\/\/\/\/\/\/\/\/\/\/\/\/\/\/\/\/\/\/\/\/\/\/\/\/\/\/\/\/\/\/\/\/\/\/\/\/\/\/\/\/\/\/\/\/\/\/\/\/\/\/\/\/\/\/\/\/\/\/\/\/\/\/\/\/\/\/\/\/\/\/\/\/\/\/\/\/\/\/\/\/\/\/\/\/\/\/\/\/\/\/\/\/\/\/\/\/\/\/\/\/\/\/\/\/\/\/\/\/\/\/\/\/\/\/\/\/\/\/\/\/\/\/\/\/\/\/\/\/\/\/\/\/\/\/\/\/\/\/\/\/\/\/\/\/\/\/\/\/\/\/\/\/\/\/\/\/\/\/\/\/\/\/\/\/\/\/\/\/\/\/\/\/\/\/\/\/\/\/\/\/\/\/\/\/\/\/\/\/\/\/\/\/\/\/\/\/\/\/\/\/\/\/\/\/\/\/\/\/\/\/\/\/\/\/\/\/\/\/\/\/\/\/\/\/\/\/\/\/\/\/\/\/\/\/\/\/\/\/\/\/\/\/\/\/\/\/\/\/\/\/\/\/\/\/\/\/\/\/\/\/\/\/\/\/\/\/\/\/\/\/\/\/\/\/\/\/\/\/\/\/\/\/\/\/\/\/\/\/\/\/\/\/\/\/\/\/\/\/\/\/\/\/\/\/\/\/\/\/\/\/\/\/\/\/\/\/\/\/\/\/\/\/\/\/\/\/\/\/\/\/\/\/\/\/\/\/\/\/\/\/\/\/\/\/\/\/\/\/\/\/\/\/\/\/\/\/\/\/\/\/\/\/\/\/\/\/\/\/\/\/\/\/\/\/\/\/\/\/\/\/\/\/\/\/\/\/\/\/\/\/\/\/\/\/\/\/\/\/\/\/\/\/\/\/\/\/\/\/\/\/\/\/\/\/\/\/\/\/\/\/\/\/\/\/\/\/\/\/\/\/\/\/\/\/\/\/\/\/\/\/\/\/\/\/\/\/\/\/\/\/\/\/\/\/\/\/\/\/\/\/\/\/\/\/\/\/\/\/\/\/\/\/\/\/\/\/\/\/\/\/\/\/\/\/\/\/\/\/\/\/\/\/\/\/\/\/\/\/\/\/\/\/\/\/\/\/\/\/\/\/\/\/\/\/\/\/\/\/\/\/\/\/\/\/\/\/\/\/\/\/\/\/\/\/\/\/\/\/\/\/\/\/\/\/\/\/\/\/\/\/\/\/\/\/\/\/\/\/\/\/\/\/\/\/\/\/\/\/\/\/\/\/\/\/\/\/\/\/\/\/\/\/\/\/\/\/\/\/\/\/\/\/\/\/\/\/\/\/\/\/\/\/\/\/\/\/\/\/\/\/\/\/\/\/\/\/\/\/\/\/\/\/\/\/\/\/\/\/\/\/\/\/\/\/\/\/\/\/\/\/\/\/\/\/\/\/\/\/\/\/\/\/\/\/\/\/\/\/\/\/\/\/\/\/\/\/\/\/\/\/\/\/\/\/\/\/\/\/\/\/\/\/\/\/\/\/\/\/\/\/\/\/\/\/\/\/\/\/\/\/\/\/\/\/\/\/\/\/\/\/\/\/\/\/\/\/\/\/\/\/\/\/\/\/\/\/\/\/\/\/\/\/\/\/\/\/\/\/\/\/\/\/\/\/\/\/\/\/\/\/\/\/\/\/\/\/\/\/\/\/\/\/\/\/\/\/\/\/\/\/\/\/\/\/\/\/\/\/\/\/\/\/\/\/\/\/\/\/\/\/\/\/\/\/\/\/\/\/\/\/\/\/\/\/\/\/\/\/\/\/\/\/\/\/\/\/\/\/\/\/\/\/\/\/\/\/yH5BAEAAAEALAAAAAATABEAAAi+AAMIDDCgYMGBCBMSvMCQ4QCFCQcwDBGCA4cLDyEGECDxAoAQHjxwyKhQAMeGIUOSJJjRpIAGDS5wCDly4AALFlYOgHlBwwOSNydM0AmzwYGjBi8IHWoTgQYORg8QIGDAwAKhESI8HIDgwQaRDI1WXXAhK9MBBzZ8\/XDxQoUFZC9IiCBh6wEHGz6IbNuwQoSpWxEgyLCXL8O\/gAnylNlW6AUEBRIL7Og3KwQIiCXb9HsZQoIEUzUjNEiaNMKAAAA7",
      "contentType": "image\/gif"
    },
    {
      "id": "org3141",
      "resourceType": "Organization",
      "name": "Good Health Clinic",
      "identifier": [
        {
          "value": "2.16.840.1.113883.19.5",
          "system": "urn:ietf:rfc:3986"
        }
      ]
    }
  ],
  "birthDate": "1974-12",
  "deceasedBoolean": true,
  "multipleBirthInteger": 3,
  "identifier": [
    {
      "assigner": {
        "display": "Acme Healthcare"
      },
      "period": {
        "start": "2001-05-06"
      },
      "value": "12345",
      "system": "urn:oid:1.2.36.146.595.217.0.1",
      "use": "usual"
    }
  ],
  "extension": [
    {
      "valueReference": {
        "reference": "#pic1",
        "display": "Duck image"
      },
      "url": "http:\/\/example.org\/fhir\/StructureDefinition\/patientAvatar"
    },
    {
      "extension": [
        {
          "valueCoding": {
            "code": "AB45",
            "extension": [
              {
                "extension": [
                  {
                    "valueString": "extra info",
                    "url": "extra1"
                  }
                ],
                "url": "http:\/\/example.org\/fhir\/StructureDefinition\/extraforcodingWithExt"
              },
              {
                "valueInteger": 45,
                "url": "http:\/\/example.org\/fhir\/StructureDefinition\/extraforcodingWithValue"
              }
            ],
            "system": "http:\/\/demo.org\/id\/4"
          },
          "url": "nestedA"
        },
        {
          "id": "q4",
          "url": "nestedB",
          "extension": [
            {
              "valueString": "hello",
              "url": "nestedB1"
            }
          ]
        }
      ],
      "url": "http:\/\/example.org\/fhir\/StructureDefinition\/complexExtensionExample"
    }
  ],
  "text": {
    "status": "generated",
    "div": "<div xmlns='http:\/\/www.w3.org\/1999\/xhtml'>\n  <table>\n    <tbody>\n      <tr>\n        <td>Name<\/td>\n        <td>Peter James\n\n                            <b>Chalmers<\/b> (\"Jim\")\n\n                        <\/td>\n      <\/tr>\n      <tr>\n        <td>Address<\/td>\n        <td>534 Erewhon, Pleasantville, Vic, 3999<\/td>\n      <\/tr>\n      <tr>\n        <td>Contacts<\/td>\n        <td>Home: unknown. Work: (03) 5555 6473<\/td>\n      <\/tr>\n      <tr>\n        <td>Id<\/td>\n        <td>MRN: 12345 (Acme Healthcare)<\/td>\n      <\/tr>\n    <\/tbody>\n  <\/table>\n<\/div>"
  },
  "generalPractitioner": [
    {
      "reference": "#org3141"
    }
  ],
  "resourceType": "Patient",
  "name": [
    {
      "family": [
        "Chalmers"
      ],
      "given": [
        "Peter",
        "James"
      ],
      "use": "official"
    },
    {
      "given": [
        "Jim"
      ],
      "use": "usual"
    }
  ],
  "address": [
    {
      "state": "Vic",
      "line": [
        "534 Erewhon St"
      ],
      "city": "PleasantVille",
      "postalCode": "3999",
      "use": "home"
    }
  ],
  "_active": {
    "extension": [
      {
        "valueCode": "archived",
        "url": "http:\/\/example.org\/fhir\/StructureDefinition\/recordStatus"
      }
    ]
  },
  "gender": "male",
  "modifierExtension": [
    {
      "valueDecimal": 3.1415926535898,
      "url": "http:\/\/example.org\/fhir\/StructureDefinition\/pi"
    },
    {
      "valueDecimal": 6.0221416246424e+23,
      "url": "http:\/\/example.org\/fhir\/StructureDefinition\/avogadro"
    }
  ],
  "maritalStatus": {
    "coding": [
      {
        "display": "unknown",
        "code": "UNK",
        "system": "http:\/\/hl7.org\/fhir\/v3\/NullFlavor"
      }
    ]
  }
}